Data from spectrum_helium_Subt2_09-57-29-786.txt Node
Date: Mon Feb 25 09:57:29 CET 2019
User: MyStuff
Spectrometer: S04994
Autoset integration time: false
Trigger mode: 0
Resolution mode: 1024 pixels
Integration Time (sec): 5,000000E-2
Scans to average: 10
Nonlinearity correction enabled: false
Boxcar width: 0
XAxis mode: Wavelengths
Baseline correction enabled: true
Stop averaging: false
Number of Pixels in Spectrum: 1024
>>>>>Begin Spectral Data<<<<<
336,281	1501,9
336,738	1502,5
337,196	1502,9
337,654	1502,9
338,111	1502,9
338,569	1503,2
339,027	1504
339,484	1503,9
339,942	1502,7
340,4	1502,9
340,858	1504,1
341,315	1503,7
341,773	1504,6
342,231	1500,3
342,689	1503,2
343,147	1504,1
343,605	1504
344,063	1503,2
344,521	1503,8
344,98	1504,8
345,438	1504,2
345,896	1502,9
346,354	1503,5
346,813	1500,8
347,271	1503
347,729	1503,8
348,188	1503,6
348,646	1500,8
349,104	1504,6
349,563	1503,6
350,021	1503,1
350,48	1504,3
350,939	1503,2
351,397	1503,2
351,856	1503,7
352,315	1504,2
352,773	1500,9
353,232	1502,6
353,691	1502,6
354,15	1502,8
354,609	1504,5
355,068	1499,2
355,526	1504
355,985	1504,1
356,444	1505,3
356,904	1504,2
357,363	1501,8
357,822	1503,3
358,281	1502,6
358,74	1504,3
359,199	1505,3
359,659	1503
360,118	1505,3
360,577	1503,7
361,037	1503,9
361,496	1502,9
361,955	1503,9
362,415	1505,2
362,874	1505
363,334	1506
363,793	1507
364,253	1519,6
364,713	1547,2
365,172	1574,6
365,632	1576,4
366,092	1558,8
366,552	1534,3
367,011	1519,7
367,471	1510,4
367,931	1504,8
368,391	1504,6
368,851	1505,1
369,311	1502,5
369,771	1504,4
370,231	1504,3
370,691	1505,5
371,151	1505,8
371,612	1503,6
372,072	1502,2
372,532	1504,2
372,992	1505
373,453	1504,1
373,913	1503,9
374,373	1503,3
374,834	1503,6
375,294	1503,5
375,755	1504,3
376,215	1503,1
376,676	1504,9
377,136	1502,7
377,597	1504,6
378,058	1504
378,518	1502,5
378,979	1505,4
379,44	1505,6
379,901	1506,9
380,362	1504,1
380,822	1504,7
381,283	1505,9
381,744	1505,5
382,205	1503,5
382,666	1504,2
383,127	1502,5
383,588	1506
384,049	1503,4
384,511	1503,5
384,972	1501,2
385,433	1503,7
385,894	1504,1
386,356	1503,6
386,817	1503,8
387,278	1503,7
387,74	1504,2
388,201	1503,6
388,663	1503,8
389,124	1500,9
389,586	1503,1
390,047	1503,1
390,509	1504,7
390,97	1501,6
391,432	1503,2
391,894	1504,1
392,356	1505,2
392,817	1501,5
393,279	1502,8
393,741	1502,9
394,203	1503,7
394,665	1501,9
395,127	1502,2
395,589	1496,8
396,051	1504,8
396,513	1505
396,975	1503,7
397,437	1504
397,899	1505,5
398,362	1505,4
398,824	1505,3
399,286	1504,8
399,748	1506,5
400,211	1508,9
400,673	1503,9
401,135	1506,1
401,598	1506,8
402,06	1509,8
402,523	1513,1
402,986	1514,1
403,448	1532,5
403,911	1616,3
404,373	1839,7
404,836	2031
405,299	1987,6
405,762	1757,4
406,224	1564,8
406,687	1532
407,15	1537,1
407,613	1560,1
408,076	1575,2
408,539	1564,2
409,002	1535,5
409,465	1519,3
409,928	1515,8
410,391	1515,6
410,854	1514,2
411,318	1515,7
411,781	1517,4
412,244	1516,1
412,707	1517,2
413,171	1517,6
413,634	1517,7
414,097	1518,6
414,561	1519,5
415,024	1522,7
415,488	1521,8
415,951	1521,3
416,415	1522,3
416,879	1525,9
417,342	1525,3
417,806	1525,2
418,27	1528,5
418,733	1528,2
419,197	1528,6
419,661	1527,6
420,125	1531,7
420,589	1532,5
421,053	1531,5
421,517	1531,9
421,981	1532,8
422,445	1533
422,909	1535,7
423,373	1535,8
423,837	1533,5
424,301	1539,9
424,765	1537,7
425,23	1539,1
425,694	1541
426,158	1543,8
426,623	1544,1
427,087	1548,3
427,551	1551,8
428,016	1548,1
428,48	1552
428,945	1555,6
429,409	1553,8
429,874	1557,5
430,339	1560,9
430,803	1561,1
431,268	1562,9
431,733	1562,3
432,198	1566,2
432,662	1570,4
433,127	1575
433,592	1582
434,057	1594,5
434,522	1626,1
434,987	1781,6
435,452	2331,1
435,917	3089,1
436,382	3146
436,847	2543,9
437,312	1823,8
437,778	1634,5
438,243	1604,8
438,708	1597,2
439,173	1590,9
439,639	1590,6
440,104	1586,3
440,57	1593,8
441,035	1593,5
441,5	1591,6
441,966	1590,3
442,431	1595,2
442,897	1599,5
443,363	1594,6
443,828	1595,1
444,294	1597
444,76	1595,9
445,226	1598
445,691	1598,8
446,157	1602,3
446,623	1599,7
447,089	1598,9
447,555	1600,3
448,021	1601,7
448,487	1603,8
448,953	1602,2
449,419	1605,6
449,885	1605,4
450,351	1608,1
450,817	1607,5
451,284	1608,1
451,75	1609,1
452,216	1609,2
452,683	1611,6
453,149	1611,3
453,615	1616
454,082	1610,2
454,548	1613,2
455,015	1611,9
455,481	1613,7
455,948	1610,6
456,414	1609,8
456,881	1608,9
457,348	1609,8
457,814	1607,6
458,281	1607,6
458,748	1603,4
459,215	1603,4
459,682	1601,7
460,149	1602,2
460,615	1603,2
461,082	1597,5
461,549	1597,8
462,016	1599,1
462,484	1599,3
462,951	1598,2
463,418	1598,6
463,885	1593,9
464,352	1597,3
464,819	1598,1
465,287	1596,7
465,754	1593,2
466,221	1593,6
466,689	1594,9
467,156	1592,3
467,624	1592,8
468,091	1589,2
468,559	1586,7
469,026	1584,3
469,494	1582,2
469,961	1583,7
470,429	1582,3
470,897	1578,9
471,364	1578,9
471,832	1580,4
472,3	1575,5
472,768	1576,9
473,236	1577,1
473,704	1573,2
474,172	1574
474,64	1574,3
475,108	1573,5
475,576	1569,2
476,044	1568,6
476,512	1568,3
476,98	1570,2
477,448	1569,6
477,917	1568,9
478,385	1571
478,853	1570,7
479,321	1577,6
479,79	1579
480,258	1585,3
480,727	1590,2
481,195	1593,1
481,664	1607,2
482,132	1624,7
482,601	1641,4
483,069	1666,9
483,538	1704,7
484,007	1736,6
484,476	1768,5
484,944	1819,8
485,413	1860,4
485,882	1924,1
486,351	1963,3
486,82	1992,8
487,289	1996,8
487,758	1999,9
488,227	1983,1
488,696	1954,8
489,165	1934,1
489,634	1903,8
490,103	1893
490,572	1877,6
491,041	1860,9
491,511	1858,4
491,98	1845,9
492,449	1841,3
492,919	1820,7
493,388	1802,1
493,858	1794,4
494,327	1779,6
494,796	1765,4
495,266	1753
495,736	1744,5
496,205	1730,8
496,675	1722,9
497,145	1720,8
497,614	1710,8
498,084	1699,4
498,554	1685,4
499,024	1671,05
499,494	1656,7
499,963	1641,2
500,433	1625,1
500,903	1615,6
501,373	1605
501,843	1596,1
502,313	1583
502,784	1578,2
503,254	1573,4
503,724	1569,2
504,194	1564,3
504,664	1557,9
505,135	1556,6
505,605	1552,2
506,075	1550
506,546	1546,2
507,016	1542,3
507,487	1543,7
507,957	1543,9
508,428	1543,8
508,898	1543,2
509,369	1541,2
509,839	1544
510,31	1542,3
510,781	1540,9
511,252	1540
511,722	1540
512,193	1539,4
512,664	1541,5
513,135	1538,5
513,606	1539,7
514,077	1539
514,548	1539,9
515,019	1536,5
515,49	1534,4
515,961	1534,9
516,432	1536,2
516,903	1536,1
517,375	1535,5
517,846	1533
518,317	1530,6
518,788	1528,7
519,26	1529,6
519,731	1531,5
520,203	1531,1
520,674	1528
521,145	1526,5
521,617	1527,4
522,089	1526,2
522,56	1526,4
523,032	1523,1
523,503	1526,4
523,975	1525,6
524,447	1523,3
524,919	1524,8
525,39	1525
525,862	1528
526,334	1526,5
526,806	1526,3
527,278	1526,6
527,75	1530,2
528,222	1531,8
528,694	1529,4
529,166	1529,8
529,638	1529,6
530,111	1533,5
530,583	1533,5
531,055	1534,2
531,527	1534,9
532	1545,8
532,472	1558,8
532,944	1582,7
533,417	1613,8
533,889	1625,9
534,362	1615,3
534,834	1602,1
535,307	1601
535,779	1615,9
536,252	1639,9
536,725	1684,6
537,197	1744,2
537,67	1823,4
538,143	1910,7
538,616	1990,6
539,088	2077,2
539,561	2224,5
540,034	2463,1
540,507	2807,4
540,98	3347,4
541,453	4073
541,926	4627,7
542,399	4860,2
542,872	4702,8
543,346	4471,8
543,819	4420,5
544,292	4422,6
544,765	4410,9
545,239	4589,8
545,712	5856,9
546,185	6888,9
546,659	6584,5
547,132	4805,7
547,606	3612
548,079	3245
548,553	3042,8
549,026	2903,6
549,5	2776,3
549,974	2638,1
550,447	2490,7
550,921	2364,8
551,395	2270,9
551,869	2196,6
552,342	2126,6
552,816	2061,2
553,29	1988
553,764	1921,3
554,238	1850,8
554,712	1784
555,186	1729,9
555,66	1692,4
556,134	1661,5
556,609	1645
557,083	1629,4
557,557	1617,8
558,031	1606,9
558,506	1595,1
558,98	1588,4
559,454	1583,8
559,929	1577,6
560,403	1570,7
560,878	1569
561,352	1566,8
561,827	1564,4
562,301	1566,7
562,776	1559,4
563,251	1558,7
563,725	1554
564,2	1552,6
564,675	1548,9
565,15	1548
565,624	1545,3
566,099	1542,6
566,574	1544,2
567,049	1538,8
567,524	1540,1
567,999	1538,9
568,474	1539,2
568,949	1538,2
569,424	1538,3
569,899	1536,7
570,375	1536,5
570,85	1533
571,325	1533,5
571,8	1532,5
572,276	1535,9
572,751	1535,7
573,227	1538
573,702	1541,4
574,177	1544,8
574,653	1545,2
575,129	1558
575,604	1569,3
576,08	1632,3
576,555	1835,2
577,031	2029,3
577,507	2024,7
577,983	1848,5
578,458	1833,4
578,934	2024,7
579,41	2111,7
579,886	2081,4
580,362	2006,9
580,838	1988
581,314	1950,9
581,79	1954,3
582,266	2018,3
582,742	2103,4
583,218	2180,7
583,694	2225,5
584,171	2235,1
584,647	2206,7
585,123	2162,9
585,6	2127,9
586,076	2100,1
586,552	2168,4
587,029	2364,3
587,505	2512,2
587,982	2463,3
588,458	2240
588,935	2055,2
589,412	1968,9
589,888	1935,6
590,365	1921,5
590,842	1919
591,318	1932,1
591,795	1956,8
592,272	2031,2
592,749	2144,9
593,226	2238,2
593,703	2190,5
594,18	2050,9
594,657	1897,6
595,134	1805,6
595,611	1766,2
596,088	1753,1
596,565	1742,5
597,042	1737
597,519	1734,5
597,997	1754,9
598,474	1800,4
598,951	1873,2
599,429	1934,1
599,906	1952,9
600,384	1908,4
600,861	1830,6
601,339	1766,4
601,816	1708,8
602,294	1678,5
602,771	1660,9
603,249	1654,3
603,727	1658,2
604,204	1666
604,682	1673,6
605,16	1685,5
605,638	1697,6
606,116	1713,4
606,593	1736,9
607,071	1777,7
607,549	1816,3
608,027	1886,9
608,505	1986
608,984	2140,9
609,462	2407
609,94	2946,5
610,418	4152,5
610,896	6389,8
611,374	8227,4
611,853	8096,9
612,331	6522,3
612,809	4839,6
613,288	4052,9
613,766	3681,1
614,245	3471,2
614,723	3296,6
615,202	3070,9
615,68	2769,6
616,159	2492,8
616,638	2285,1
617,116	2156,4
617,595	2080,5
618,074	2021,4
618,553	1988,6
619,031	1988,7
619,51	1997,9
619,989	2019,3
620,468	2054,8
620,947	2072,5
621,426	2064,7
621,905	2053,1
622,384	2045,3
622,863	2040,5
623,343	2058,5
623,822	2060,4
624,301	2067,4
624,78	2059,5
625,26	2058,3
625,739	2052,2
626,218	2036,6
626,698	2030,6
627,177	2010,3
627,657	1986,7
628,136	1971,4
628,616	1953,9
629,095	1950,1
629,575	1980
630,054	2070,4
630,534	2229,8
631,014	2366,3
631,494	2350
631,973	2141,7
632,453	1909,5
632,933	1760,2
633,413	1683,5
633,893	1646,8
634,373	1628
634,853	1616,2
635,333	1605,2
635,813	1599,9
636,293	1594,3
636,773	1590,7
637,254	1585,6
637,734	1579,7
638,214	1570,8
638,694	1572,2
639,175	1570,6
639,655	1568,7
640,135	1568,9
640,616	1567,7
641,096	1569,2
641,577	1570
642,057	1569,9
642,538	1571,1
643,019	1573,1
643,499	1575,9
643,98	1575,4
644,461	1579,3
644,941	1577,4
645,422	1578,8
645,903	1578,3
646,384	1574,5
646,865	1574,2
647,346	1576,4
647,827	1577,7
648,308	1580,3
648,789	1587,6
649,27	1606,3
649,751	1653,8
650,232	1717,5
650,713	1752,8
651,195	1729,3
651,676	1673,8
652,157	1635
652,639	1626
653,12	1628,7
653,601	1625,5
654,083	1609,8
654,564	1595,5
655,046	1584,1
655,527	1580,1
656,009	1575,1
656,491	1574,1
656,972	1579,6
657,454	1580,8
657,936	1588,9
658,417	1584,6
658,899	1572,6
659,381	1559,6
659,863	1556,4
660,345	1552,8
660,827	1554,8
661,309	1565,3
661,791	1594,8
662,273	1636,1
662,755	1648,3
663,237	1635,7
663,719	1606,8
664,201	1584,1
664,684	1570,8
665,166	1563,9
665,648	1562,6
666,131	1557,6
666,613	1560,4
667,095	1561,7
667,578	1562,1
668,06	1560,6
668,543	1559,5
669,025	1558,2
669,508	1556,3
669,991	1559,3
670,473	1552,5
670,956	1551,1
671,439	1551,2
671,922	1550,9
672,404	1548,8
672,887	1549,2
673,37	1546,2
673,853	1545,9
674,336	1544,3
674,819	1543,9
675,302	1542,5
675,785	1541,4
676,268	1541,4
676,751	1540,8
677,234	1542
677,718	1544,1
678,201	1543,9
678,684	1547,1
679,167	1552,4
679,651	1553,7
680,134	1554,6
680,618	1554,7
681,101	1557
681,585	1553,3
682,068	1550,2
682,552	1546,5
683,035	1546,5
683,519	1544,5
684,003	1541,9
684,486	1540,1
684,97	1543,9
685,454	1545,8
685,938	1555,2
686,421	1571,7
686,905	1594,3
687,389	1620,2
687,873	1626,9
688,357	1613,5
688,841	1588,4
689,325	1565,8
689,809	1545,7
690,294	1534,9
690,778	1537,5
691,262	1533
691,746	1528,1
692,23	1531,4
692,715	1545,5
693,199	1570,3
693,684	1591
694,168	1587
694,652	1563,5
695,137	1539,1
695,621	1524,7
696,106	1522
696,591	1517,9
697,075	1516,8
697,56	1514,7
698,045	1512,6
698,529	1514,6
699,014	1515,3
699,499	1516
699,984	1517,9
700,469	1515,4
700,954	1517,1
701,439	1519
701,924	1519,6
702,409	1523,5
702,894	1527
703,379	1536,5
703,864	1545,5
704,349	1551,1
704,834	1567,2
705,32	1588,7
705,805	1626,2
706,29	1685,4
706,776	1734,6
707,261	1746,8
707,747	1732,1
708,232	1737,9
708,718	1770,9
709,203	1785,1
709,689	1730,3
710,174	1664,3
710,66	1618,5
711,146	1623,2
711,631	1668
712,117	1719,1
712,603	1721,7
713,089	1686,2
713,575	1617,5
714,06	1567,7
714,546	1541,2
715,032	1526,6
715,518	1519,4
716,004	1517
716,491	1516,2
716,977	1510
717,463	1512,7
717,949	1512,5
718,435	1510,8
718,922	1509,1
719,408	1509,9
719,894	1510,1
720,381	1511,1
720,867	1509
721,353	1509,4
721,84	1510,5
722,326	1511
722,813	1508,6
723,3	1507,3
723,786	1509,2
724,273	1508,9
724,759	1508,9
725,246	1509,2
725,733	1508,2
726,22	1510,3
726,707	1506,1
727,194	1508,9
727,68	1506,4
728,167	1508,3
728,654	1509
729,141	1515,9
729,628	1520,8
730,116	1521,7
730,603	1521,1
731,09	1515,2
731,577	1513,7
732,064	1511,7
732,552	1509,3
733,039	1510,1
733,526	1509
734,014	1503,7
734,501	1507,8
734,988	1503,8
735,476	1504
735,963	1504,4
736,451	1506,6
736,939	1506,2
737,426	1505,1
737,914	1507,1
738,402	1505
738,889	1504,9
739,377	1503,6
739,865	1504,6
740,353	1504,1
740,841	1507,4
741,329	1507,7
741,817	1509,5
742,305	1511
742,793	1510,8
743,281	1510,6
743,769	1507,5
744,257	1508,3
744,745	1506,6
745,233	1506
745,722	1506,2
746,21	1506,2
746,698	1507,1
747,187	1506,5
747,675	1507,9
748,163	1503
748,652	1505,3
749,14	1505,4
749,629	1505,3
750,117	1502,8
750,606	1504,2
751,095	1504,5
751,583	1503,3
752,072	1502,8
752,561	1504,4
753,05	1504,1
753,538	1503,9
754,027	1503,2
754,516	1505
755,005	1501,7
755,494	1503,7
755,983	1503,8
756,472	1504,7
756,961	1503
757,45	1505
757,94	1503,6
758,429	1511,8
758,918	1514,4
759,407	1526
759,896	1537,1
760,386	1536,8
760,875	1526,5
761,365	1515,6
761,854	1504,9
762,344	1504,5
762,833	1504,9
763,323	1503,2
763,812	1503,3
764,302	1505
764,791	1503,9
765,281	1500,1
765,771	1504,7
766,261	1502,8
766,75	1500,1
767,24	1504
767,73	1504,3
768,22	1504,8
768,71	1505,9
769,2	1509,3
769,69	1507,1
770,18	1507,1
770,67	1506
771,16	1504,8
771,65	1502,6
772,141	1503,2
772,631	1505,1
773,121	1504
773,611	1503,9
774,102	1503
774,592	1502,2
775,083	1502,7
775,573	1499,9
776,064	1504,3
776,554	1503,8
777,045	1504,5
777,535	1502,2
778,026	1502
778,517	1502,6
779,007	1501
779,498	1502,7
779,989	1500,1
780,48	1502,3
780,97	1502,9
781,461	1503,8
781,952	1502,2
782,443	1501,9
782,934	1499,3
783,425	1501,4
783,916	1504,4
784,407	1501,6
784,899	1501,4
785,39	1503,5
785,881	1505,6
786,372	1504,5
786,864	1503,6
787,355	1503,7
787,846	1502,7
788,338	1503,2
788,829	1500,3
789,32	1496,3
789,812	1502,3
790,304	1502,4
790,795	1502,8
791,287	1501,6
791,778	1502,1
792,27	1502,2
792,762	1502,3
793,254	1502,8
793,745	1502,8
794,237	1503,1
794,729	1501,8
795,221	1503,9
795,713	1503,4
796,205	1503,9
796,697	1503
797,189	1501,7
797,681	1504,1
798,173	1502,9
798,665	1502,2
799,157	1501,7
799,65	1502,5
800,142	1502,7
800,634	1502,1
801,127	1504,1
801,619	1503,2
802,111	1503,9
802,604	1502,9
803,096	1500,6
803,589	1501,4
804,081	1503,8
804,574	1503,1
805,067	1505
805,559	1504,9
806,052	1507,1
806,545	1503,4
807,037	1504,9
807,53	1506,7
808,023	1517,1
808,516	1536,1
809,009	1543,6
809,502	1543,5
809,995	1539
810,488	1547,6
810,981	1551,1
811,474	1547,4
811,967	1530,7
812,46	1518,6
812,954	1509,7
813,447	1505,8
813,94	1502,8
814,433	1506,7
814,927	1506,2
815,42	1505,2
815,914	1506,3
816,407	1505,1
816,901	1504,8
817,394	1505,1
817,888	1505,3
818,381	1506,3
818,875	1506,6
819,369	1507,9
819,862	1504,1
820,356	1503,1
820,85	1505,5
821,344	1503,9
821,838	1499,7
822,331	1501,6
822,825	1504,5
